Sine Test Results
Object:
DAMPER
Task File:
C:\VIBRO\SINE_T\TASK\DX_6G.ST

Spertrum - g, ampl - g, phase - rad

  210 - point number
1 Hz - frequency band
  n   Fr[Hz]   1ch Sin    2ch Sin    4ch Sin 
    1   166    6.02004    8.36525    8.28135
    2   167    6.00070    8.37457    8.29130
    3   168    6.00611    8.43301    8.34735
    4   169    6.03381    8.51049    8.42100
    5   170    6.00649    8.51053    8.42015
    6   171    5.98478    8.53286    8.44387
    7   172    5.98626    8.58130    8.49217
    8   173    6.01309    8.65486    8.56155
    9   174    5.99305    8.67922    8.58635
   10   175    6.01358    8.76619    8.66893
   11   176    5.99782    8.78796    8.69096
   12   177    6.00287    8.83559    8.73764
   13   178    6.02429    8.92596    8.82638
   14   179    6.03349    8.99507    8.89484
   15   180    6.00285    8.99899    8.89964
   16   181    5.98436    9.01684    8.91612
   17   182    6.00413    9.09702    8.99523
   18   183    6.01085    9.17639    9.07048
   19   184    6.01624    9.22280    9.11817
   20   185    5.99613    9.25431    9.14569
   21   186    6.01228    9.35056    9.24196
   22   187    5.99280    9.38808    9.27493
   23   188    5.99449    9.45873    9.34713
   24   189    6.00785    9.52937    9.41107
   25   190    6.02333    9.61998    9.49980
   26   191    5.99246    9.64862    9.52740
   27   192    5.99607    9.73558    9.61196
   28   193    6.01765    9.81908    9.68858
   29   194    5.98769    9.84280    9.71453
   30   195    5.99926    9.94866    9.81513
   31   196    6.00380   10.03817    9.90657
   32   197    5.99110   10.09552    9.96246
   33   198    5.99608   10.20276   10.06212
   34   199    5.99408   10.24632   10.09802
   35   200    6.00365   10.35138   10.20139
   36   201    5.98779   10.43035   10.27517
   37   202    6.00898   10.56630   10.41325
   38   203    6.00789   10.63465   10.47519
   39   204    5.99381   10.71592   10.55675
   40   205    6.00469   10.84665   10.68048
   41   206    6.00230   10.95813   10.78844
   42   207    5.98898   11.06805   10.89379
   43   208    6.00605   11.22119   11.04537
   44   209    5.99975   11.27962   11.08840
   45   210    6.02257   11.45365   11.27430
   46   211    6.02359   11.58744   11.38902
   47   212    5.98877   11.64002   11.43842
   48   213    6.00053   11.75287   11.53047
   49   214    6.00490   11.90795   11.67840
   50   215    5.99199   12.02473   11.77920
   51   216    5.99162   12.19469   11.93589
   52   217    6.01545   12.40899   12.13437
   53   218    5.98240   12.52814   12.22390
   54   219    6.00789   12.67428   12.37166
   55   220    6.01848   12.98507   12.64402
   56   221    6.00832   13.06272   12.70003
   57   222    5.99233   13.24366   12.84951
   58   223    5.99759   13.44917   13.02640
   59   224    6.00546   13.60089   13.16117
   60   225    5.99235   13.79823   13.33379
   61   226    6.00084   14.06938   13.59534
   62   227    5.99394   14.30357   13.81581
   63   228    5.99856   14.56285   14.07562
   64   229    6.01339   14.88647   14.39483
   65   230    6.01817   15.18182   14.69039
   66   231    6.05614   15.58435   15.10568
   67   232    6.00621   15.63441   15.16450
   68   233    6.00604   15.99751   15.53949
   69   234    6.00795   16.35704   15.86561
   70   235    6.00080   16.73341   16.28559
   71   236    6.00986   17.19658   16.73829
   72   237    5.97207   17.33061   16.87934
   73   238    6.04087   18.27402   17.79873
   74   239    6.06064   19.06251   18.56147
   75   240    6.00683   19.27750   18.76527
   76   241    5.99402   19.91852   19.37196
   77   242    5.99998   20.68089   20.09741
   78   243    6.00642   21.71927   21.06163
   79   244    6.00061   22.70385   21.96499
   80   245    5.92273   23.19440   22.40987
   81   246    5.98476   24.77032   23.90309
   82   247    5.99196   26.24409   25.35561
   83   248    6.01132   27.58660   26.67898
   84   249    6.00120   28.98196   28.10165
   85   250    6.01104   30.50564   29.66020
   86   251    5.99075   32.18382   31.34690
   87   252    6.03805   33.82666   33.04270
   88   253    6.01230   35.31927   34.65183
   89   254    6.01331   36.10125   35.54456
   90   255    5.99744   37.43554   36.98835
   91   256    6.00808   38.61766   38.21694
   92   257    5.99249   39.31907   38.88797
   93   258    5.97967   39.55803   39.10939
   94   259    6.04682   39.24503   38.76758
   95   260    5.98277   39.24977   38.72926
   96   261    6.03060   38.74337   38.19683
   97   262    6.00186   38.28701   37.70022
   98   263    5.99400   37.49521   36.90595
   99   264    5.99575   37.00713   36.41320
  100   265    6.00332   36.40513   35.78152
  101   266    5.99703   35.77720   35.15461
  102   267    6.01188   35.17129   34.51342
  103   268    6.01207   34.52385   33.85889
  104   269    6.01689   33.46822   32.80516
  105   270    5.99962   33.28671   32.62077
  106   271    5.99773   32.65783   31.98306
  107   272    6.01258   32.00782   31.32870
  108   273    6.01031   31.40728   30.74122
  109   274    5.98637   30.59355   29.92481
  110   275    5.99770   30.42224   29.73977
  111   276    5.98049   29.77645   29.11422
  112   277    5.99354   29.18752   28.53200
  113   278    6.01158   29.14832   28.49485
  114   279    6.01817   28.56874   27.92015
  115   280    5.98175   27.85372   27.21996
  116   281    6.00060   27.33288   26.70360
  117   282    6.00856   26.89406   26.30404
  118   283    6.00494   26.26284   25.68679
  119   284    6.03129   25.88135   25.31263
  120   285    6.01449   25.81296   25.25460
  121   286    6.00272   25.25226   24.69917
  122   287    5.98034   25.30125   24.74459
  123   288    5.97003   24.78795   24.23882
  124   289    6.02682   23.91341   23.37428
  125   290    6.00287   23.93833   23.38601
  126   291    6.00194   23.46741   22.93661
  127   292    6.02417   23.11805   22.59472
  128   293    6.00509   22.63090   22.11707
  129   294    6.03427   22.24847   21.72564
  130   295    5.99868   22.31470   21.79324
  131   296    6.03316   22.00355   21.48545
  132   297    6.02074   21.58040   21.07313
  133   298    5.94270   21.45448   20.94970
  134   299    6.02484   20.85887   20.36595
  135   300    5.97907   20.84420   20.34653
  136   301    5.99919   20.56964   20.06287
  137   302    6.00675   20.22922   19.74170
  138   303    5.99749   19.82523   19.33624
  139   304    5.93237   19.85915   19.37003
  140   305    6.02320   19.30729   18.82631
  141   306    5.99490   19.32992   18.85069
  142   307    6.10187   18.84852   18.36833
  143   308    5.99507   18.69218   18.22638
  144   309    5.99961   18.41855   17.96349
  145   310    5.89846   18.31552   17.87057
  146   311    5.93215   18.08954   17.65798
  147   312    5.99449   17.94392   17.52997
  148   313    6.01454   17.71479   17.31259
  149   314    6.00696   17.42633   17.03898
  150   315    5.99474   17.11844   16.74448
  151   316    6.03012   16.98164   16.60547
  152   317    6.02559   16.73196   16.36426
  153   318    5.99301   16.72344   16.36417
  154   319    5.99345   16.45809   16.10039
  155   320    6.02142   16.30290   15.94349
  156   321    6.00868   16.06588   15.72590
  157   322    6.00402   15.84299   15.49064
  158   323    5.92256   15.72958   15.38526
  159   324    5.95617   15.59518   15.25148
  160   325    5.98810   15.42437   15.08707
  161   326    6.02967   15.33958   15.00799
  162   327    6.01517   15.15154   14.80690
  163   328    6.00381   14.92443   14.59204
  164   329    6.02026   14.78445   14.45132
  165   330    6.02540   14.64196   14.30191
  166   331    6.00784   14.60820   14.27780
  167   332    6.08071   14.38183   14.04402
  168   333    5.98394   14.25880   13.90936
  169   334    6.00651   14.11991   13.77708
  170   335    6.01414   13.99442   13.63462
  171   336    5.99440   13.80935   13.45124
  172   337    6.02092   13.71594   13.36248
  173   338    6.00189   13.66585   13.31466
  174   339    6.13300   13.62089   13.26592
  175   340    6.00331   13.41036   13.03573
  176   341    6.02749   13.27648   12.91158
  177   342    6.02702   13.16534   12.81093
  178   343    5.99997   12.94989   12.58742
  179   344    5.90820   12.79657   12.44572
  180   345    5.98829   12.75918   12.39563
  181   346    5.99609   12.66772   12.30619
  182   347    5.99306   12.51720   12.15478
  183   348    6.02283   12.46594   12.11057
  184   349    6.02426   12.35018   11.98452
  185   350    5.90120   12.10616   11.75375
  186   351    5.91546   12.01257   11.66582
  187   352    5.95278   11.95907   11.61435
  188   353    6.00876   11.96999   11.61935
  189   354    5.99920   11.79680   11.44648
  190   355    5.99962   11.71820   11.36843
  191   356    6.00239   11.59943   11.25409
  192   357    6.01943   11.53570   11.18632
  193   358    5.88436   11.26144   10.92789
  194   359    6.04057   11.36191   11.01242
  195   360    5.99670   11.25325   10.91333
  196   361    5.98629   11.12555   10.79066
  197   362    6.01218   11.09722   10.76411
  198   363    6.00768   10.99092   10.65874
  199   364    5.99367   10.87692   10.54773
  200   365    6.01503   10.80742   10.47406
  201   366    5.88418   10.54754   10.23693
  202   367    6.02727   10.66046   10.33337
  203   368    5.97545   10.50816   10.18950
  204   369    6.00318   10.44845   10.13549
  205   370    5.97665   10.33042   10.01556
  206   371    6.01906   10.33082   10.01578
  207   372    6.02316   10.23844    9.95349
  208   373    5.99936   10.12083    9.83050
  209   374    6.01650   10.08146    9.79997
  210   375    5.88121    9.81886    9.53983
